Speed (rpm),Power (mW)
2831.7,943.9
2831.7,943.87
2831.7,943.85
2831.7,943.88
2831.7,943.96
2831.7,944.11
2831.7,944.35
2831.8,944.68
2831.9,945.09
2832,945.59
2832.1,946.17
2832.3,946.94
2832.5,947.74
2832.8,948.53
2833.1,949.28
2833.5,949.95
2833.9,950.49
2834.3,950.87
2834.7,951.05
2835.1,951.01
2835.5,950.72
2835.9,949.87
2836.2,948.76
2836.4,947.42
2836.5,945.88
2836.5,944.15
2836.4,942.28
2836.2,940.31
2835.9,938.28
2835.4,936.22
2834.8,934.17
2834.2,932.38
2833.4,930.65
2832.5,928.99
2831.5,927.41
2830.4,925.89
2829.2,924.46
2828,923.1
2826.7,921.82
2825.3,920.61
2823.8,919.48
2822.3,918.34
2820.7,917.3
2819,916.38
2817.3,915.61
2815.6,915.02
2813.8,914.62
2812.1,914.44
2810.3,914.48
2808.5,914.77
2806.8,915.31
2805.2,916.28
2803.6,917.47
2802.1,918.86
2800.7,920.42
2799.4,922.1
2798.1,923.86
2797,925.67
2795.9,927.49
2795,929.28
2794,931.01
2793.2,932.44
2792.3,933.76
2791.5,934.98
2790.7,936.09
2790,937.1
2789.2,938.01
2788.5,938.84
2787.8,939.6
2787.2,940.3
2786.6,940.94
2786.1,941.71
2785.7,942.44
2785.4,943.1
2785.3,943.7
2785.3,944.22
2785.5,944.64
2785.7,944.97
2786.2,945.2
2786.7,945.31
2787.4,945.31
2788.1,944.95
2789,944.49
2789.9,943.97
2790.8,943.42
2791.8,942.85
2792.9,942.3
2794,941.79
2795.2,941.35
2796.4,940.98
2797.7,940.72
2799,940.76
2800.5,940.88
2801.9,941.09
2803.5,941.34
2805.1,941.63
2806.7,941.91
2808.4,942.17
2810.1,942.39
2811.7,942.53
2813.4,942.58
2814.9,942.51
2816.4,942.34
2817.8,942.09
2819.1,941.77
2820.3,941.4
2821.3,941
2822.2,940.59
2822.9,940.21
2823.6,939.86
2824.1,939.57
2824.5,939.55
2824.9,939.61
2825.1,939.73
2825.4,939.91
2825.6,940.14
2825.7,940.41
2825.8,940.69
2825.9,940.98
2826,941.26
2826,941.52
2826,941.32
2825.9,941.1
2825.8,940.89
2825.6,940.7
2825.4,940.55
2825.1,940.46
2824.8,940.45
2824.6,940.53
2824.3,940.71
2824,941.01
2823.8,941.61
2823.7,942.31
2823.6,943.08
2823.7,943.91
2823.8,944.76
2824,945.61
2824.3,946.44
2824.6,947.22
2825,947.93
2825.5,948.55
2826,949.23
2826.5,949.81
2827.1,950.3
2827.7,950.7
2828.2,951.04
2828.8,951.33
2829.3,951.59
2829.9,951.83
2830.5,952.07
2831.1,952.33
2831.7,952.74
2832.3,953.17
2833,953.63
2833.8,954.1
2834.6,954.59
2835.4,955.06
2836.3,955.5
2837.2,955.89
2838.2,956.22
2839.2,956.46
2840.2,956.23
2841.2,955.87
2842.1,955.38
2843,954.75
2843.9,953.97
2844.6,953.03
2845.3,951.95
2845.9,950.72
2846.4,949.36
2846.7,947.88
2847,946.2
2847.2,944.46
2847.4,942.69
2847.4,940.92
2847.3,939.18
2847.1,937.53
2846.8,935.99
2846.5,934.61
2846,933.4
2845.5,932.4
2845,932
2844.3,931.83
2843.7,931.87
2842.9,932.13
2842.2,932.58
2841.5,933.21
2840.7,933.99
2840,934.9
2839.3,935.92
2838.6,937.02
2837.9,938.04
2837.3,939.12
2836.7,940.25
2836.1,941.44
2835.6,942.67
2835.2,943.95
2834.8,945.28
2834.5,946.66
2834.2,948.07
2834.1,949.51
2834,951.19
2833.9,952.86
2834,954.5
2834.1,956.09
2834.3,957.59
2834.5,958.98
2834.8,960.23
2835.1,961.31
2835.5,962.19
2835.9,962.87
2836.3,963.16
2836.7,963.24
2837.2,963.09
2837.7,962.74
2838.2,962.2
2838.7,961.47
2839.2,960.59
2839.7,959.56
2840.3,958.41
2840.8,957.14
2841.4,955.54
2842,953.85
2842.5,952.09
2843.1,950.25
2843.6,948.35
2844.2,946.38
2844.7,944.37
2845.1,942.31
2845.5,940.22
2845.9,938.11
2846.1,935.88
2846.2,933.68
2846.2,931.55
2846,929.53
2845.8,927.64
2845.3,925.93
2844.7,924.44
2844,923.21
2843.2,922.26
2842.3,921.62
2841.3,921.99
2840.3,922.7
2839.4,923.76
2838.4,925.15
2837.4,926.87
2836.5,928.88
2835.7,931.16
2834.9,933.66
2834.2,936.36
2833.6,939.19
2833,942.28
2832.6,945.37
2832.2,948.4
2831.9,951.3
2831.7,953.99
2831.6,956.4
2831.5,958.48
2831.4,960.18
2831.4,961.46
2831.3,962.28
2831.2,961.6
2831.1,960.5
2830.8,959.02
2830.5,957.24
2830.1,955.22
2829.6,953.02
2829,950.74
2828.3,948.43
2827.6,946.16
2826.8,943.99
2826,942.35
2825.2,940.87
2824.5,939.54
2823.7,938.34
2823.1,937.26
2822.5,936.26
2821.9,935.32
2821.5,934.41
2821,933.49
2820.7,932.54
2820.5,931.8
2820.3,931.01
2820.2,930.18
2820.2,929.35
2820.3,928.52
2820.4,927.72
2820.5,927
2820.7,926.37
2820.9,925.88
2821.2,925.56
2821.4,925.58
2821.6,925.8
2821.7,926.25
2821.8,926.9
2821.9,927.77
2821.9,928.85
2821.8,930.11
2821.7,931.54
2821.5,933.12
2821.2,934.82
2820.9,936.3
2820.4,937.83
2819.9,939.41
2819.3,940.99
2818.6,942.54
2817.8,944.03
2817.1,945.44
2816.2,946.74
2815.4,947.9
2814.6,948.89
2813.9,949.71
2813.3,950.34
2812.8,950.75
2812.4,950.96
2812.2,950.94
2812,950.72
2812,950.29
2812.1,949.67
2812.2,948.87
2812.5,947.91
2812.7,946.78
2813,945.56
2813.3,944.26
2813.6,942.92
2813.8,941.58
2814.1,940.26
2814.3,938.99
2814.5,937.79
2814.7,936.68
2814.9,935.67
2815.1,934.99
2815.3,934.38
2815.5,933.83
2815.7,933.31
2816,932.78
2816.3,932.21
2816.5,931.58
2816.8,930.85
2817.1,930.02
2817.3,929.06
2817.4,927.68
2817.4,926.2
2817.3,924.67
2817.1,923.12
2816.7,921.61
2816.2,920.19
2815.5,918.9
2814.7,917.8
2813.7,916.91
2812.6,916.28
2811.4,916.31
2810.2,916.6
2808.8,917.11
2807.4,917.82
2806,918.67
2804.5,919.62
2803,920.64
2801.5,921.66
2800,922.66
2798.5,923.6
2797,924.04
2795.4,924.41
2793.8,924.72
2792.3,925.01
2790.7,925.32
2789.2,925.67
2787.8,926.1
2786.4,926.65
2785.1,927.33
2783.9,928.18
2782.9,929.62
2782,931.21
2781.4,932.89
2780.9,934.61
2780.6,936.32
2780.4,937.96
2780.4,939.5
2780.6,940.87
2780.9,942.03
2781.4,942.96
2781.9,943.11
2782.4,943.03
2782.9,942.76
2783.5,942.36
2784,941.87
2784.6,941.36
2785.1,940.87
2785.7,940.47
2786.3,940.21
2787,940.12
2787.8,940.63
2788.7,941.34
2789.7,942.21
2790.9,943.22
2792.3,944.33
2793.8,945.48
2795.5,946.62
2797.3,947.72
2799.2,948.71
2801.2,949.55
2803.2,950.06
2805.2,950.37
2807.2,950.49
2809.2,950.41
2811.1,950.15
2812.9,949.72
2814.6,949.16
2816.2,948.48
2817.7,947.73
2819.1,946.92
2820.4,946.25
2821.7,945.57
2822.9,944.91
2824.1,944.27
2825.2,943.67
2826.2,943.12
2827.2,942.62
2828.1,942.18
2829,941.79
2829.8,941.47
2830.5,940.97
2831,940.55
2831.5,940.19
2831.8,939.91
2832,939.71
2832.1,939.58
2832.1,939.53
2832,939.55
2831.9,939.63
2831.7,939.76
2831.5,940.05
2831.3,940.35
2831.2,940.65
2831.1,940.93
2831.1,941.16
2831.1,941.32
2831.1,941.41
2831.2,941.4
2831.2,941.29
2831.3,941.08
2831.3,940.68
2831.2,940.21
2831.1,939.67
2830.8,939.1
2830.5,938.52
2830,937.97
2829.5,937.47
2828.8,937.05
2828.1,936.71
2827.3,936.49
2826.5,936.63
2825.7,936.87
2824.9,937.17
2824.1,937.51
2823.4,937.86
2822.7,938.18
2822.1,938.43
2821.5,938.58
2820.9,938.6
2820.4,938.47
2819.9,937.86
2819.4,937.09
2818.9,936.19
2818.3,935.18
2817.8,934.09
2817.2,932.96
2816.5,931.82
2815.8,930.71
2815.1,929.66
2814.3,928.7
2813.6,928.04
2812.8,927.5
2812,927.08
2811.2,926.78
2810.4,926.58
2809.6,926.46
2808.8,926.41
2808,926.41
2807.3,926.44
2806.5,926.47
2805.6,926.42
2804.8,926.34
2803.9,926.21
2803,926.03
2802.1,925.78
2801.2,925.47
2800.2,925.09
2799.2,924.66
2798.2,924.17
2797.1,923.66
2796,923.04
2795,922.43
2793.9,921.86
2792.8,921.36
2791.8,920.96
2790.8,920.69
2789.7,920.57
2788.8,920.62
2787.8,920.86
2786.9,921.3
2786,922.19
2785.2,923.26
2784.5,924.48
2783.8,925.82
2783.1,927.25
2782.5,928.72
2782.1,930.2
2781.6,931.65
2781.3,933.03
2781.1,934.3
2780.9,935.26
2780.8,936.07
2780.9,936.73
2781,937.25
2781.2,937.63
2781.5,937.89
2781.9,938.03
2782.3,938.06
2782.8,938.01
2783.4,937.88
2783.9,937.7
2784.5,937.46
2785.1,937.16
2785.7,936.8
2786.3,936.38
2786.9,935.9
2787.4,935.36
2787.9,934.77
2788.4,934.11
2788.8,933.41
2789.2,932.49
2789.5,931.56
2789.8,930.64
2790,929.76
2790.2,928.95
2790.3,928.23
2790.5,927.63
2790.6,927.17
2790.8,926.87
2791,926.74
2791.2,927.22
2791.6,927.86
2792,928.64
2792.5,929.52
2793,930.46
2793.7,931.45
2794.4,932.43
2795.2,933.38
2796,934.26
2796.8,935.04
2797.6,935.54
2798.3,935.91
2799,936.16
2799.7,936.28
2800.2,936.3
2800.7,936.21
2801,936.03
2801.3,935.78
2801.4,935.47
2801.5,935.12
2801.4,934.53
2801.3,933.92
2801.1,933.28
2800.8,932.62
2800.5,931.94
2800.1,931.23
2799.6,930.49
2799.1,929.72
2798.6,928.91
2798,928.07
2797.3,927.13
2796.7,926.14
2795.9,925.12
2795.2,924.06
2794.4,922.97
2793.5,921.86
2792.6,920.74
2791.7,919.62
2790.8,918.51
2789.8,917.43
2788.9,916.68
2788,915.99
2787,915.36
2786.1,914.81
2785.3,914.34
2784.4,913.97
2783.6,913.7
2782.8,913.54
2782,913.5
2781.2,913.58
2780.4,913.81
2779.5,914.15
2778.7,914.59
2777.8,915.13
2777,915.73
2776,916.4
2775.1,917.11
2774.2,917.85
2773.3,918.58
2772.3,919.31
2771.4,919.75
2770.4,920.15
2769.5,920.5
2768.6,920.79
2767.6,921.01
2766.7,921.15
2765.8,921.23
2765,921.22
2764.1,921.13
2763.3,920.97
2762.4,920.73
2761.6,920.42
2760.8,920.06
2760,919.63
2759.3,919.15
2758.5,918.64
2757.8,918.1
2757.1,917.54
2756.3,916.97
2755.6,916.4
2755,915.97
2754.3,915.57
2753.7,915.18
2753.2,914.83
2752.7,914.52
2752.2,914.25
2751.8,914.03
2751.5,913.85
2751.2,913.72
2751,913.65
2750.8,913.59
2750.6,913.59
2750.5,913.65
2750.5,913.77
2750.4,913.96
2750.5,914.21
2750.5,914.53
2750.6,914.9
2750.7,915.33
2750.8,915.8
2751,916.39
2751.2,916.99
2751.3,917.58
2751.5,918.15
2751.7,918.66
2751.8,919.1
2752,919.45
2752.1,919.71
2752.2,919.86
2752.2,919.9
2752.2,919.65
2752.2,919.31
2752.1,918.91
2751.9,918.46
2751.7,918.01
2751.5,917.57
2751.3,917.18
2751,916.86
2750.8,916.63
2750.5,916.5
2750.2,916.7
2750,917
2749.9,917.38
2749.8,917.82
2749.7,918.29
2749.7,918.75
2749.8,919.18
2749.9,919.55
2750.1,919.84
2750.3,920.03
2750.5,919.85
2750.8,919.56
2751,919.19
2751.2,918.76
2751.5,918.3
2751.7,917.83
2751.9,917.4
2752.1,917.02
2752.3,916.73
2752.4,916.55
2752.6,916.71
2752.8,917.01
2753.1,917.42
2753.3,917.94
2753.6,918.55
2753.9,919.23
2754.2,919.96
2754.6,920.72
2754.9,921.48
2755.3,922.22
2755.7,922.79
2756.1,923.31
2756.4,923.81
2756.8,924.27
2757.2,924.7
2757.5,925.12
2757.9,925.53
2758.3,925.95
2758.7,926.38
2759.1,926.83
2759.6,927.45
2760.1,928.1
2760.7,928.79
2761.3,929.52
2762.1,930.27
2762.9,931.04
2763.8,931.82
2764.7,932.61
2765.7,933.39
2766.8,934.15
2767.9,934.87
2769,935.54
2770.1,936.16
2771.2,936.72
2772.4,937.21
2773.5,937.63
2774.6,937.95
2775.7,938.18
2776.9,938.31
2778,938.33
2779,938.15
2780.1,937.87
2781.2,937.48
2782.3,937
2783.4,936.42
2784.5,935.76
2785.6,935.02
2786.6,934.22
2787.6,933.37
2788.5,932.48
2789.4,931.55
2790.3,930.61
2791,929.69
2791.6,928.79
2792.2,927.94
2792.7,927.15
2793.1,926.44
2793.4,925.81
2793.6,925.28
2793.8,924.85
2793.9,924.7
2794,924.64
2794,924.69
2794,924.82
2794.1,925.04
2794.1,925.32
2794.1,925.65
2794.1,926.03
2794.1,926.43
2794.1,926.86
2794.1,927.22
2794,927.59
2794,927.96
2793.9,928.33
2793.8,928.7
2793.7,929.08
2793.6,929.46
2793.4,929.84
2793.2,930.21
2793,930.59
2792.8,930.95
2792.5,931.3
2792.2,931.63
2791.9,931.92
2791.6,932.17
2791.3,932.35
2791,932.47
2790.7,932.51
2790.3,932.45
2789.9,932.29
2789.6,932.04
2789.2,931.66
2788.8,931.17
2788.4,930.55
2788,929.81
2787.6,928.95
2787.2,927.98
2786.8,926.91
2786.3,925.76
2785.8,924.54
2785.3,923.16
2784.8,921.76
2784.2,920.38
2783.7,919.05
2783.1,917.81
2782.4,916.68
2781.8,915.69
2781.1,914.87
2780.5,914.24
2779.8,913.8
2779.1,913.73
2778.5,913.85
2777.9,914.15
2777.2,914.59
2776.7,915.16
2776.1,915.82
2775.5,916.54
2775,917.3
2774.5,918.07
2774,918.82
2773.6,919.47
2773.1,920.09
2772.7,920.66
2772.3,921.2
2771.8,921.73
2771.4,922.24
2771,922.76
2770.6,923.31
2770.3,923.89
2769.9,924.53
2769.6,925.36
2769.3,926.26
2769,927.22
2768.8,928.24
2768.6,929.3
2768.5,930.4
2768.4,931.53
2768.4,932.66
2768.5,933.8
2768.7,934.91
2768.9,935.79
2769.2,936.63
2769.6,937.44
2770,938.2
2770.6,938.92
2771.2,939.59
2771.9,940.22
2772.8,940.81
2773.7,941.34
2774.8,941.83
2775.9,942.31
2777.2,942.73
2778.5,943.1
2780,943.42
2781.5,943.67
2783.2,943.86
2784.9,943.99
2786.6,944.05
2788.4,944.04
2790.2,943.97
2792,943.94
2793.8,943.86
2795.6,943.71
2797.3,943.5
2799,943.23
2800.6,942.92
2802.2,942.55
2803.7,942.15
2805.1,941.72
2806.5,941.27
2807.7,940.8
2809,940.33
2810.1,939.85
2811.2,939.39
2812.2,938.93
2813.2,938.5
2814.1,938.1
2815,937.72
2815.8,937.39
2816.6,937.09
2817.2,936.72
2817.8,936.39
2818.4,936.11
2818.8,935.88
2819.2,935.71
2819.5,935.58
2819.8,935.51
2819.9,935.47
2820,935.48
2820.1,935.51
2820.1,935.63
2820,935.75
2819.9,935.87
2819.8,935.96
2819.6,936.01
2819.4,936
2819.1,935.94
2818.8,935.81
2818.5,935.6
2818.1,935.32
2817.7,934.91
2817.2,934.44
2816.6,933.93
2816,933.4
2815.4,932.89
2814.7,932.4
2813.9,931.96
2813.2,931.59
2812.4,931.31
2811.7,931.14
2810.9,931.19
2810.2,931.35
2809.4,931.61
2808.7,931.96
2808.1,932.37
2807.5,932.83
2806.9,933.31
2806.4,933.8
2806,934.26
2805.6,934.68
2805.2,935.01
2804.9,935.26
2804.7,935.43
2804.4,935.49
2804.2,935.46
2804,935.33
2803.8,935.09
2803.7,934.75
2803.5,934.32
2803.3,933.8
2803.1,933.23
2802.9,932.58
2802.6,931.86
2802.3,931.09
2802,930.28
2801.6,929.42
2801.2,928.54
2800.7,927.65
2800.2,926.74
2799.6,925.85
2799,924.8
2798.3,923.78
2797.5,922.8
2796.6,921.86
2795.7,920.98
2794.8,920.16
2793.8,919.41
2792.8,918.76
2791.7,918.19
2790.7,917.73
2789.6,917.3
2788.6,917
2787.5,916.85
2786.5,916.85
2785.6,917.03
2784.7,917.4
2783.8,917.96
2783.1,918.71
2782.4,919.66
2781.8,920.8
2781.2,922.58
2780.8,924.51
2780.5,926.55
2780.3,928.68
2780.2,930.85
2780.2,933.02
2780.4,935.15
2780.6,937.22
2780.9,939.19
2781.2,941.04
2781.7,942.57
2782.2,943.95
2782.8,945.2
2783.5,946.32
2784.2,947.32
2784.9,948.23
2785.8,949.05
2786.7,949.81
2787.6,950.52
2788.7,951.19
2789.8,951.64
2791,952.07
2792.2,952.45
2793.5,952.79
2794.9,953.08
2796.3,953.29
2797.8,953.41
2799.3,953.42
2800.9,953.31
2802.6,953.06
2804.2,952.58
2805.9,951.95
2807.6,951.16
2809.3,950.2
2811,949.09
2812.7,947.84
2814.3,946.46
2815.9,944.97
2817.4,943.38
2818.8,941.74
2820.2,940.24
2821.5,938.73
2822.7,937.25
2823.9,935.83
2824.9,934.49
2825.9,933.27
2826.7,932.19
2827.5,931.29
2828.1,930.58
2828.7,930.07
2829.1,929.87
2829.4,929.89
2829.7,930.13
2829.8,930.57
2829.8,931.19
2829.7,931.98
2829.6,932.92
2829.4,933.98
2829.2,935.13
2828.9,936.36
2828.6,937.56
2828.3,938.79
2828,940.03
2827.7,941.27
2827.4,942.48
2827.1,943.65
2826.8,944.78
2826.6,945.85
2826.4,946.86
2826.2,947.8
2826,948.65
2825.8,949.43
2825.7,950.11
2825.6,950.7
2825.5,951.19
2825.4,951.59
2825.3,951.87
2825.2,952.06
2825.1,952.12
2824.7,946.78
2824.4,946.81
2824.1,946.81
2823.8,946.78
2824,952.72
